Folder: edoxrd/example_data

File: e16014_01_-103_KTO_RSM_2-Theta.asc
*TYPE		=  Raw
*CLASS		=
*SAMPLE		=
*COMMENT	=
*FNAME		=  e16014_01_-103_KTO_RSM_2-Theta.asc
*DATE		=  07-Mar-16 19:34

*GROUP_COUNT	=  1
*GONIO		=  SmartLab, 0.000000
*ATTACHMENT	=  Chi phi Z cradle
*ASC		=  0, 0, 0.000000, 0.000000
*I_MONOCHRO	=  Ge(220)x2, 0.000000
*FILTER		=  None
*C_MONOCHRO	=  None, 0.000000
*SLIT_NAME	=  0, Incident slit
*SLIT_NAME	=  1, Receiving slit # 1
*SLIT_NAME	=  2, Receiving slit # 2
*COUNTER	=  D/teX Ultra, 0
*POS_FORMAT	=  0
*SCAN_AXIS	=  2theta
*MEAS_MODE	=  FT
*TARGET		=  29
*XRAY_CHAR	=  K-ALPHA1
*WAVE_LENGTH1	=  1.54059
*WAVE_LENGTH2	=  1.54441
*THICKNESS	=  0, 0.000000
*MU		=  0, 0.000000
*SCAN_MODE	=  2theta
*SPEED_DIM	=  sec./step(FT)
*XUNIT		=  deg.
*YUNIT		=  counts
*SCALE_MODE	=  1
*REP_COUNT	=  0
*SE_COUNT	=  0
*STD_MATERIAL	=  Unknown, Unknown, 0.000000, 0.000000, 0.000000, 0.000000, 0.000000, 0.000000
*LATT_CONS	=  0, Unknown, Unknown, 0.000000, 0.000000, 0.000000, 0.000000, 0.000000, 0.000000
*SEC_COUNT	=  401
*TSPEC_SIZE	=  0
*EXTRA_SIZE	=  0
*MEMO		=

*BEGIN
*GROUP		=  0
*START		=  74.25
*STOP		=  76.25
*STEP		=  0.0078
*OFFSET		=  55.06
*SPEED		=  2
*SLIT_SPEC	=  0, 0.500mm, 0.5, 0.000000
*SLIT_SPEC	=  1, 8.000mm, 8, 0.000000
*SLIT_SPEC	=  2, 13.000mm, 13, 0.000000
*KV		=  45
*MA		=  200
*LOW		=  0.000000
*HIGH		=  0.000000
*CTEMPER	=  0, 0.000000
*CTEMPER	=  1, 0.000000
*CTEMPER	=  2, 0.000000
*PAREX		=  0, 0.000000
*PAREX		=  1, 0.000000
*PAREX		=  2, 0.000000
*PAREX		=  3, 0.000000
*PAREX		=  4, 0.000000
*PAREX		=  5, 0.000000
*PAREX		=  6, 0.000000
*PAREX		=  7, 0.000000
*PAREX		=  8, 0.000000
*PAREX		=  9, 0.000000
*PAREX		=  10, 0.000000
*PAREX		=  11, 0.000000
*PAREX		=  12, 0.000000
*PAREX		=  13, 0.000000
*PAREX		=  14, 0.000000
*PAREX		=  15, 0.000000
*FULL_SCALE	=  25920
*INDEX		=  0, 0, 0
*COUNT		=  257
7, 6, 5, 5
6, 7, 8, 8
9, 10, 11, 9
7, 6, 6, 6
8, 11, 11, 8
6, 7, 8, 9
8, 7, 5, 4
5, 9, 11, 9
7, 8, 10, 11
10, 10, 11, 13
13, 12, 10, 8
6, 7, 9, 12
15, 18, 17, 13
11, 13, 16, 15
12, 9, 7, 5
5, 7, 8, 9
10, 10, 10, 10
9, 8, 9, 10
10, 9, 9, 9
9, 9, 10, 10
9, 8, 8, 8
9, 11, 14, 14
14, 13, 10, 8
8, 8, 8, 9
9, 10, 11, 13
15, 16, 14, 12
11, 10, 10, 9
9, 12, 15, 16
13, 10, 8, 7
7, 9, 10, 9
8, 8, 9, 9
8, 6, 8, 10
12, 11, 11, 9
6, 6, 8, 10
12, 14, 13, 10
7, 7, 7, 9
12, 14, 9, 4
3, 4, 5, 7
8, 7, 7, 6
7, 7, 8, 9
8, 5, 4, 5
8, 8, 7, 7
9, 11, 13, 13
14, 13, 11, 10
9, 9, 11, 12
10, 6, 5, 6
7, 7, 6, 5
4, 3, 5, 6
7, 7, 7, 8
9, 7, 5, 3
4, 5, 6, 7
8, 6, 5, 8
11, 12, 11, 10
9, 7, 7, 8
9, 7, 5, 5
7, 9, 8, 7
8, 8, 9, 9
9, 9, 10, 8
5, 3, 7, 13
13, 10, 7, 7
6, 7, 8, 9
11, 12, 11, 11
10, 9, 9, 8
7, 7, 6, 5
6
*END

*BEGIN
*GROUP		=  0
*START		=  74.25
*STOP		=  76.25
*STEP		=  0.0078
*OFFSET		=  55.065
*SPEED		=  2
*SLIT_SPEC	=  0, 0.500mm, 0.5, 0.000000
*SLIT_SPEC	=  1, 8.000mm, 8, 0.000000
*SLIT_SPEC	=  2, 13.000mm, 13, 0.000000
*KV		=  45
*MA		=  200
*LOW		=  0.000000
*HIGH		=  0.000000
*CTEMPER	=  0, 0.000000
*CTEMPER	=  1, 0.000000
*CTEMPER	=  2, 0.000000
*PAREX		=  0, 0.000000
*PAREX		=  1, 0.000000
*PAREX		=  2, 0.000000
*PAREX		=  3, 0.000000
*PAREX		=  4, 0.000000
*PAREX		=  5, 0.000000
*PAREX		=  6, 0.000000
*PAREX		=  7, 0.000000
*PAREX		=  8, 0.000000
*PAREX		=  9, 0.000000
*PAREX		=  10, 0.000000
*PAREX		=  11, 0.000000
*PAREX		=  12, 0.000000
*PAREX		=  13, 0.000000
*PAREX		=  14, 0.000000
*PAREX		=  15, 0.000000
*FULL_SCALE	=  25920
*INDEX		=  0, 0, 0
*COUNT		=  257
6, 6, 5, 5
7, 9, 9, 7
6, 11, 15, 14
12, 10, 9, 8
9, 10, 11, 14
15, 12, 9, 9
13, 16, 16, 15
13, 11, 9, 8
8, 9, 10, 11
10, 9, 10, 12
12, 9, 8, 9
10, 11, 12, 12
9, 6, 7, 9
11, 11, 11, 11
12, 12, 10, 9
7, 5, 5, 6
8, 8, 9, 9
8, 8, 8, 9
8, 7, 7, 8
10, 10, 8, 7
8, 9, 11, 14
16, 16, 16, 13
9, 8, 11, 13
13, 14, 14, 13
13, 12, 10, 10
9, 10, 12, 14
12, 9, 8, 9
11, 9, 6, 6
7, 9, 9, 8
8, 8, 8, 8
8, 10, 13, 15
12, 8, 9, 11
13, 12, 11, 11
12, 11, 10, 8
9, 10, 11, 10
10, 12, 14, 13
8, 6, 8, 10
10, 9, 8, 8
8, 9, 10, 11
12, 12, 10, 8
8, 11, 13, 10
7, 7, 10, 12
9, 6, 6, 8
9, 7, 5, 4
4, 5, 7, 9
8, 6, 6, 8
10, 11, 12, 12
11, 10, 8, 6
5, 5, 5, 5
5, 5, 5, 6
7, 9, 8, 7
6, 5, 3, 5
8, 9, 10, 11
10, 9, 9, 10
10, 12, 13, 12
8, 6, 7, 7
6, 5, 4, 3
3, 6, 10, 11
10, 8, 8, 9
8, 7, 6, 7
9, 10, 11, 12
10, 9, 9, 9
8, 7, 5, 6
7, 7, 6, 6
7
*END

*BEGIN
*GROUP		=  0
*START		=  74.25
*STOP		=  76.25
*STEP		=  0.0078
*OFFSET		=  55.07
*SPEED		=  2
*SLIT_SPEC	=  0, 0.500mm, 0.5, 0.000000
*SLIT_SPEC	=  1, 8.000mm, 8, 0.000000
*SLIT_SPEC	=  2, 13.000mm, 13, 0.000000
*KV		=  45
*MA		=  200
*LOW		=  0.000000
*HIGH		=  0.000000
*CTEMPER	=  0, 0.000000
*CTEMPER	=  1, 0.000000
*CTEMPER	=  2, 0.000000
*PAREX		=  0, 0.000000
*PAREX		=  1, 0.000000
*PAREX		=  2, 0.000000
*PAREX		=  3, 0.000000
*PAREX		=  4, 0.000000
*PAREX		=  5, 0.000000
*PAREX		=  6, 0.000000
*PAREX		=  7, 0.000000
*PAREX		=  8, 0.000000
*PAREX		=  9, 0.000000
*PAREX		=  10, 0.000000
*PAREX		=  11, 0.000000
*PAREX		=  12, 0.000000
*PAREX		=  13, 0.000000
*PAREX		=  14, 0.000000
*PAREX		=  15, 0.000000
*FULL_SCALE	=  25920
*INDEX		=  0, 0, 0
*COUNT		=  257
7, 8, 8, 8
8, 9, 8, 6
5, 5, 5, 5
5, 6, 8, 11
12, 13, 11, 8
6, 6, 7, 8
9, 9, 10, 11
10, 9, 8, 8
8, 6, 3, 2
4, 7, 8, 9
8, 7, 6, 8
11, 11, 8, 6
7, 8, 9, 9
10, 10, 9, 9
10, 10, 10, 10
10, 9, 9, 8
7, 8, 9, 9
10, 11, 11, 10
10, 9, 8, 9
11, 13, 15, 17
16, 15, 14, 12
11, 11, 11, 10
9, 9, 10, 12
11, 10, 10, 11
12, 11, 10, 10
11, 11, 9, 8
8, 7, 7, 7
7, 7, 6, 6
5, 5, 6, 7
8, 7, 6, 7
9, 8, 8, 7
7, 6, 7, 9
9, 8, 6, 8
11, 12, 11, 10
9, 8, 8, 9
10, 9, 8, 9
10, 11, 9, 8
8, 10, 11, 9
7, 6, 7, 8
9, 11, 10, 9
8, 7, 6, 6
6, 6, 7, 8
8, 7, 8, 8
10, 11, 13, 11
8, 6, 7, 7
9, 12, 12, 10
8, 7, 6, 7
8, 9, 9, 9
8, 7, 7, 8
10, 11, 10, 10
9, 9, 11, 14
14, 11, 8, 7
6, 6, 7, 7
7, 8, 8, 7
7, 6, 5, 7
9, 10, 7, 5
5, 5, 6, 8
9, 6, 4, 3
5, 7, 8, 9
9, 10, 10, 8
6, 6, 6, 7
6, 5, 5, 6
7, 8, 10, 10
9, 9, 8, 7
9
*END

*BEGIN
*GROUP		=  0
*START		=  74.25
*STOP		=  76.25
*STEP		=  0.0078
*OFFSET		=  55.075
*SPEED		=  2
*SLIT_SPEC	=  0, 0.500mm, 0.5, 0.000000
*SLIT_SPEC	=  1, 8.000mm, 8, 0.000000
*SLIT_SPEC	=  2, 13.000mm, 13, 0.000000
*KV		=  45
*MA		=  200
*LOW		=  0.000000
*HIGH		=  0.000000
*CTEMPER	=  0, 0.000000
*CTEMPER	=  1, 0.000000
*CTEMPER	=  2, 0.000000
*PAREX		=  0, 0.000000
*PAREX		=  1, 0.000000
*PAREX		=  2, 0.000000
*PAREX		=  3, 0.000000
*PAREX		=  4, 0.000000
*PAREX		=  5, 0.000000
*PAREX		=  6, 0.000000
*PAREX		=  7, 0.000000
*PAREX		=  8, 0.000000
*PAREX		=  9, 0.000000
*PAREX		=  10, 0.000000
*PAREX		=  11, 0.000000
*PAREX		=  12, 0.000000
*PAREX		=  13, 0.000000
*PAREX		=  14, 0.000000
*PAREX		=  15, 0.000000
*FULL_SCALE	=  25920
*INDEX		=  0, 0, 0
*COUNT		=  257
8, 7, 6, 6
8, 10, 10, 8
6, 7, 7, 6
6, 5, 7, 8
7, 6, 7, 8
9, 9, 9, 9
8, 7, 8, 9
9, 8, 9, 11
13, 12, 10, 8
6, 5, 7, 10
10, 7, 4, 5
7, 7, 6, 6
9, 13, 14, 13
12, 13, 14, 11
6, 4, 8, 11
10, 7, 6, 7
8, 8, 9, 8
7, 5, 6, 7
7, 8, 8, 10
11, 9, 5, 2
4, 5, 7, 10
12, 10, 9, 10
11, 12, 13, 14
11, 9, 9, 10
10, 8, 6, 6
8, 9, 11, 12
11, 9, 9, 10
11, 9, 6, 5
6, 8, 7, 6
6, 6, 6, 9
12, 11, 9, 7
8, 9, 8, 8
8, 9, 11, 11
11, 12, 14, 16
15, 14, 13, 12
12, 9, 5, 4
4, 4, 5, 6
6, 6, 7, 9
10, 10, 10, 10
13, 15, 11, 5
3, 4, 6, 6
7, 7, 8, 8
7, 5, 5, 5
5, 6, 8, 9
11, 11, 9, 7
7, 8, 9, 10
12, 10, 8, 8
10, 11, 10, 9
9, 8, 9, 10
12, 11, 9, 8
10, 11, 10, 8
7, 8, 9, 8
7, 7, 9, 10
8, 5, 5, 7
9, 8, 7, 8
8, 8, 5, 3
7, 12, 15, 11
8, 8, 10, 10
7, 5, 7, 10
10, 9, 8, 8
8, 8, 9, 9
7, 6, 8, 11
12, 9, 7, 6
6, 7, 10, 11
9
*END

*BEGIN
*GROUP		=  0
*START		=  74.25
*STOP		=  76.25
*STEP		=  0.0078
*OFFSET		=  55.08
*SPEED		=  2
*SLIT_SPEC	=  0, 0.500mm, 0.5, 0.000000
*SLIT_SPEC	=  1, 8.000mm, 8, 0.000000
*SLIT_SPEC	=  2, 13.000mm, 13, 0.000000
*KV		=  45
*MA		=  200
*LOW		=  0.000000
*HIGH		=  0.000000
*CTEMPER	=  0, 0.000000
*CTEMPER	=  1, 0.000000
*CTEMPER	=  2, 0.000000
*PAREX		=  0, 0.000000
*PAREX		=  1, 0.000000
*PAREX		=  2, 0.000000
*PAREX		=  3, 0.000000
*PAREX		=  4, 0.000000
*PAREX		=  5, 0.000000
*PAREX		=  6, 0.000000
*PAREX		=  7, 0.000000
*PAREX		=  8, 0.000000
*PAREX		=  9, 0.000000
*PAREX		=  10, 0.000000
*PAREX		=  11, 0.000000
*PAREX		=  12, 0.000000
*PAREX		=  13, 0.000000
*PAREX		=  14, 0.000000
*PAREX		=  15, 0.000000
*FULL_SCALE	=  25920
*INDEX		=  0, 0, 0
*COUNT		=  257
13, 12, 10, 8
7, 6, 7, 8
9, 8, 7, 9
11, 12, 10, 7
7, 7, 7, 7
7, 8, 9, 10
9, 8, 8, 8
9, 11, 11, 9
8, 8, 10, 12
15, 17, 15, 12
10, 11, 11, 10
9, 9, 9, 9
11, 12, 11, 8
6, 5, 4, 6
8, 10, 9, 8
7, 5, 5, 6
8, 9, 10, 12
16, 19, 17, 13
12, 12, 12, 10
9, 9, 9, 10
12, 13, 12, 10
9, 11, 12, 12
13, 12, 11, 9
9, 9, 9, 8
8, 10, 11, 12
12, 12, 11, 10
9, 9, 9, 11
12, 10, 6, 5
8, 10, 11, 12
11, 8, 6, 8
9, 10, 10, 9
6, 2, 6, 12
15, 13, 11, 11
10, 10, 9, 8
9, 10, 11, 10
9, 9, 10, 10
10, 10, 11, 12
11, 11, 10, 9
9, 9, 10, 10
9, 8, 8, 9
9, 8, 7, 9
11, 11, 9, 8
9, 10, 8, 6
5, 7, 9, 9
7, 6, 6, 6
6, 6, 7, 8
10, 9, 8, 8
8, 8, 9, 10
10, 9, 9, 8
6, 6, 7, 7
8, 8, 9, 10
10, 8, 6, 7
8, 9, 10, 12
10, 8, 8, 10
11, 9, 7, 5
4, 4, 7, 9
9, 9, 8, 9
9, 10, 12, 13
12, 11, 11, 10
10, 11, 11, 10
9, 10, 11, 11
7, 4, 6, 9
10, 8, 7, 7
9, 10, 9, 8
9
*END

*BEGIN
*GROUP		=  0
*START		=  74.25
*STOP		=  76.25
*STEP		=  0.0078
*OFFSET		=  55.085
*SPEED		=  2
*SLIT_SPEC	=  0, 0.500mm, 0.5, 0.000000
*SLIT_SPEC	=  1, 8.000mm, 8, 0.000000
*SLIT_SPEC	=  2, 13.000mm, 13, 0.000000
*KV		=  45
*MA		=  200
*LOW		=  0.000000
*HIGH		=  0.000000
*CTEMPER	=  0, 0.000000
*CTEMPER	=  1, 0.000000
*CTEMPER	=  2, 0.000000
*PAREX		=  0, 0.000000
*PAREX		=  1, 0.000000
*PAREX		=  2, 0.000000
*PAREX		=  3, 0.000000
*PAREX		=  4, 0.000000
*PAREX		=  5, 0.000000
*PAREX		=  6, 0.000000
*PAREX		=  7, 0.000000
*PAREX		=  8, 0.000000
*PAREX		=  9, 0.000000
*PAREX		=  10, 0.000000
*PAREX		=  11, 0.000000
*PAREX		=  12, 0.000000
*PAREX		=  13, 0.000000
*PAREX		=  14, 0.000000
*PAREX		=  15, 0.000000
*FULL_SCALE	=  25920
*INDEX		=  0, 0, 0
*COUNT		=  257
6, 7, 8, 9
9, 8, 9, 11
12, 11, 9, 8
7, 6, 4, 4
7, 12, 14, 13
12, 12, 11, 11
10, 9, 11, 12
12, 10, 9, 11
12, 12, 12, 12
12, 12, 10, 8
7, 7, 7, 6
5, 5, 6, 7
7, 7, 7, 7
7, 7, 6, 8
11, 12, 9, 7
8, 10, 10, 9
8, 7, 6, 7
11, 13, 13, 11
10, 8, 8, 10
13, 13, 12, 12
13, 15, 15, 14
13, 11, 9, 9
9, 11, 14, 17
13, 7, 5, 6
7, 8, 9, 10
10, 11, 13, 14
12, 10, 9, 9
9, 11, 13, 13
11, 9, 9, 9
9, 8, 8, 8
9, 10, 12, 12
9, 5, 5, 6
8, 10, 12, 13
15, 15, 14, 13
13, 13, 13, 12
11, 11, 11, 11
11, 11, 10, 9
8, 7, 7, 9
11, 10, 8, 7
6, 5, 8, 10
11, 8, 6, 6
5, 6, 8, 9
12, 15, 16, 15
14, 11, 8, 7
7, 7, 6, 6
9, 11, 12, 10
8, 8, 9, 9
8, 8, 9, 11
10, 10, 9, 8
7, 7, 7, 7
8, 9, 8, 7
7, 9, 10, 8
5, 5, 8, 10
10, 9, 9, 11
12, 8, 4, 6
9, 11, 9, 7
7, 7, 8, 6
5, 6, 8, 9
10, 11, 8, 5
4, 3, 3, 5
7, 7, 7, 6
4, 3, 5, 7
9, 7, 6, 6
5, 5, 5, 5
8
*END

*BEGIN
*GROUP		=  0
*START		=  74.25
*STOP		=  76.25
*STEP		=  0.0078
*OFFSET		=  55.09
*SPEED		=  2
*SLIT_SPEC	=  0, 0.500mm, 0.5, 0.000000
*SLIT_SPEC	=  1, 8.000mm, 8, 0.000000
*SLIT_SPEC	=  2, 13.000mm, 13, 0.000000
*KV		=  45
*MA		=  200
*LOW		=  0.000000
*HIGH		=  0.000000
*CTEMPER	=  0, 0.000000
*CTEMPER	=  1, 0.000000
*CTEMPER	=  2, 0.000000
*PAREX		=  0, 0.000000
*PAREX		=  1, 0.000000
*PAREX		=  2, 0.000000
*PAREX		=  3, 0.000000
*PAREX		=  4, 0.000000
*PAREX		=  5, 0.000000
*PAREX		=  6, 0.000000
*PAREX		=  7, 0.000000
*PAREX		=  8, 0.000000
*PAREX		=  9, 0.000000
*PAREX		=  10, 0.000000
*PAREX		=  11, 0.000000
*PAREX		=  12, 0.000000
*PAREX		=  13, 0.000000
*PAREX		=  14, 0.000000
*PAREX		=  15, 0.000000
*FULL_SCALE	=  25920
*INDEX		=  0, 0, 0
*COUNT		=  257
12, 11, 8, 7
8, 9, 10, 9
9, 8, 7, 7
7, 8, 10, 12
11, 8, 8, 11
14, 13, 12, 11
10, 9, 8, 7
7, 7, 8, 11
13, 12, 10, 8
6, 5, 8, 12
13, 10, 8, 7
6, 5, 6, 7
6, 5, 7, 11
13, 11, 9, 9
11, 12, 11, 10
10, 10, 10, 9
9, 10, 11, 10
9, 8, 8, 7
7, 6, 5, 7
9, 10, 11, 11
10, 9, 11, 14
15, 12, 9, 8
7, 9, 14, 17
15, 13, 12, 11
10, 9, 8, 8
8, 8, 6, 5
7, 10, 12, 12
12, 11, 9, 8
8, 8, 9, 10
9, 8, 7, 8
9, 9, 8, 8
9, 11, 10, 9
9, 11, 12, 12
10, 9, 9, 9
11, 12, 12, 9
7, 8, 10, 10
9, 9, 8, 6
5, 3, 3, 7
10, 10, 8, 7
7, 7, 8, 9
10, 11, 11, 9
8, 7, 8, 8
10, 11, 11, 11
10, 10, 10, 10
11, 11, 9, 8
8, 8, 8, 7
6, 7, 8, 7
6, 5, 7, 9
9, 9, 8, 7
5, 7, 10, 12
13, 13, 11, 9
8, 9, 10, 9
8, 8, 7, 7
6, 4, 3, 2
2, 6, 11, 11
11, 10, 8, 7
7, 6, 6, 6
6, 9, 13, 14
13, 12, 12, 13
12, 10, 9, 8
6, 7, 9, 10
11, 11, 12, 13
13, 12, 10, 10
11, 10, 7, 5
6
*END

*BEGIN
*GROUP		=  0
*START		=  74.25
*STOP		=  76.25
*STEP		=  0.0078
*OFFSET		=  55.095
*SPEED		=  2
*SLIT_SPEC	=  0, 0.500mm, 0.5, 0.000000
*SLIT_SPEC	=  1, 8.000mm, 8, 0.000000
*SLIT_SPEC	=  2, 13.000mm, 13, 0.000000
*KV		=  45
*MA		=  200
*LOW		=  0.000000
*HIGH		=  0.000000
*CTEMPER	=  0, 0.000000
*CTEMPER	=  1, 0.000000
*CTEMPER	=  2, 0.000000
*PAREX		=  0, 0.000000
*PAREX		=  1, 0.000000
*PAREX		=  2, 0.000000
*PAREX		=  3, 0.000000
*PAREX		=  4, 0.000000
*PAREX		=  5, 0.000000
*PAREX		=  6, 0.000000
*PAREX		=  7, 0.000000
*PAREX		=  8, 0.000000
*PAREX		=  9, 0.000000
*PAREX		=  10, 0.000000
*PAREX		=  11, 0.000000
*PAREX		=  12, 0.000000
*PAREX		=  13, 0.000000
*PAREX		=  14, 0.000000
*PAREX		=  15, 0.000000
*FULL_SCALE	=  25920
*INDEX		=  0, 0, 0
*COUNT		=  257
10, 10, 9, 8
8, 8, 9, 11
12, 11, 9, 9
8, 8, 10, 11
10, 9, 7, 6
5, 6, 7, 9
10, 11, 9, 8
7, 6, 6, 5
5, 7, 10, 12
10, 9, 10, 11
10, 9, 8, 6
4, 4, 5, 6
7, 9, 10, 12
13, 10, 7, 7
8, 9, 11, 12
11, 9, 8, 9
9, 11, 13, 14
15, 16, 16, 17
15, 10, 8, 9
10, 10, 9, 8
10, 11, 8, 5
5, 11, 16, 14
11, 9, 8, 7
10, 13, 12, 9
6, 6, 5, 6
7, 8, 8, 8
9, 11, 11, 9
7, 6, 5, 6
9, 11, 9, 6
4, 3, 4, 8
13, 14, 12, 11
9, 7, 8, 11
13, 12, 11, 11
11, 10, 8, 6
6, 6, 6, 7
7, 9, 10, 11
11, 11, 10, 8
8, 9, 9, 9
9, 8, 8, 7
8, 8, 7, 6
5, 6, 7, 8
9, 9, 8, 7
5, 4, 4, 6
7, 6, 4, 5
6, 7, 8, 9
7, 5, 5, 7
9, 8, 7, 6
5, 5, 6, 7
7, 8, 8, 7
6, 5, 4, 3
5, 6, 6, 5
6, 10, 12, 10
7, 6, 7, 7
9, 11, 11, 8
7, 10, 13, 11
8, 6, 9, 11
10, 8, 6, 4
3, 4, 6, 7
8, 9, 10, 11
10, 6, 4, 5
6, 9, 12, 13
10, 8, 9, 11
11, 9, 6, 6
6, 6, 7, 8
8
*END

*BEGIN
*GROUP		=  0
*START		=  74.25
*STOP		=  76.25
*STEP		=  0.0078
*OFFSET		=  55.1
*SPEED		=  2
*SLIT_SPEC	=  0, 0.500mm, 0.5, 0.000000
*SLIT_SPEC	=  1, 8.000mm, 8, 0.000000
*SLIT_SPEC	=  2, 13.000mm, 13, 0.000000
*KV		=  45
*MA		=  200
*LOW		=  0.000000
*HIGH		=  0.000000
*CTEMPER	=  0, 0.000000
*CTEMPER	=  1, 0.000000
*CTEMPER	=  2, 0.000000
*PAREX		=  0, 0.000000
*PAREX		=  1, 0.000000
*PAREX		=  2, 0.000000
*PAREX		=  3, 0.000000
*PAREX		=  4, 0.000000
*PAREX		=  5, 0.000000
*PAREX		=  6, 0.000000
*PAREX		=  7, 0.000000
*PAREX		=  8, 0.000000
*PAREX		=  9, 0.000000
*PAREX		=  10, 0.000000
*PAREX		=  11, 0.000000
*PAREX		=  12, 0.000000
*PAREX		=  13, 0.000000
*PAREX		=  14, 0.000000
*PAREX		=  15, 0.000000
*FULL_SCALE	=  25920
*INDEX		=  0, 0, 0
*COUNT		=  257
6, 5, 5, 6
9, 12, 11, 7
5, 6, 6, 6
7, 8, 9, 11
10, 9, 9, 10
12, 13, 14, 14
13, 13, 13, 12
10, 7, 6, 10
14, 14, 13, 12
12, 12, 11, 10
8, 5, 4, 5
7, 9, 11, 12
10, 8, 7, 8
8, 7, 6, 8
11, 13, 12, 12
12, 11, 10, 6
4, 7, 12, 12
8, 5, 8, 12
12, 9, 7, 8
9, 10, 10, 11
13, 14, 11, 7
6, 7, 9, 9
9, 9, 10, 11
12, 13, 12, 10
10, 11, 13, 12
8, 5, 7, 8
11, 14, 15, 11
7, 5, 4, 5
6, 7, 9, 10
11, 12, 13, 11
10, 9, 8, 8
7, 6, 7, 7
8, 7, 6, 5
4, 5, 7, 9
9, 9, 10, 11
12, 10, 9, 8
9, 9, 9, 9
10, 11, 11, 9
7, 7, 6, 7
9, 11, 11, 9
9, 10, 11, 9
8, 7, 8, 8
7, 5, 6, 8
9, 11, 13, 13
12, 11, 9, 8
9, 10, 10, 8
6, 7, 8, 9
10, 11, 10, 8
9, 11, 11, 9
6, 6, 8, 9
8, 8, 8, 8
8, 8, 8, 8
8, 9, 10, 12
10, 8, 7, 7
7, 7, 8, 7
7, 6, 7, 8
7, 7, 7, 9
10, 9, 7, 8
11, 13, 12, 9
7, 5, 4, 5
6, 8, 10, 11
10, 8, 8, 8
8, 8, 8, 6
4, 4, 7, 8
7
*END

*BEGIN
*GROUP		=  0
*START		=  74.25
*STOP		=  76.25
*STEP		=  0.0078
*OFFSET		=  55.105
*SPEED		=  2
*SLIT_SPEC	=  0, 0.500mm, 0.5, 0.000000
*SLIT_SPEC	=  1, 8.000mm, 8, 0.000000
*SLIT_SPEC	=  2, 13.000mm, 13, 0.000000
*KV		=  45
*MA		=  200
*LOW		=  0.000000
*HIGH		=  0.000000
*CTEMPER	=  0, 0.000000
*CTEMPER	=  1, 0.000000
*CTEMPER	=  2, 0.000000
*PAREX		=  0, 0.000000
*PAREX		=  1, 0.000000
*PAREX		=  2, 0.000000
*PAREX		=  3, 0.000000
*PAREX		=  4, 0.000000
*PAREX		=  5, 0.000000
*PAREX		=  6, 0.000000
*PAREX		=  7, 0.000000
*PAREX		=  8, 0.000000
*PAREX		=  9, 0.000000
*PAREX		=  10, 0.000000
*PAREX		=  11, 0.000000
*PAREX		=  12, 0.000000
*PAREX		=  13, 0.000000
*PAREX		=  14, 0.000000
*PAREX		=  15, 0.000000
*FULL_SCALE	=  25920
*INDEX		=  0, 0, 0
*COUNT		=  257
5, 5, 6, 6
7, 8, 7, 7
6, 8, 9, 10
11, 12, 10, 9
10, 11, 11, 10
8, 8, 8, 8
9, 9, 10, 12
12, 12, 12, 11
11, 12, 13, 13
10, 7, 6, 5
7, 10, 13, 11
8, 8, 11, 12
9, 6, 6, 8
9, 9, 8, 10
13, 15, 13, 12
10, 8, 7, 6
6, 9, 12, 11
8, 6, 8, 10
12, 14, 15, 11
7, 7, 8, 9
8, 8, 8, 9
10, 12, 14, 14
13, 12, 11, 11
9, 7, 6, 6
6, 9, 11, 12
12, 11, 9, 8
7, 6, 7, 9
10, 9, 6, 5
4, 4, 7, 10
13, 14, 14, 11
7, 8, 12, 14
12, 10, 8, 8
8, 10, 12, 13
13, 12, 8, 6
7, 10, 11, 10
9, 10, 11, 10
8, 7, 7, 6
7, 9, 11, 12
12, 14, 16, 17
15, 12, 8, 4
5, 10, 15, 12
8, 6, 5, 5
7, 8, 10, 11
12, 12, 13, 11
9, 8, 7, 6
6, 7, 7, 7
7, 7, 6, 7
10, 11, 9, 7
6, 6, 6, 7
9, 10, 10, 11
9, 8, 8, 9
9, 7, 6, 8
11, 11, 10, 8
5, 1, 1, 3
5, 5, 4, 5
6, 8, 10, 11
11, 9, 8, 7
6, 6, 5, 6
9, 11, 11, 12
11, 8, 6, 7
8, 7, 7, 6
6, 6, 6, 5
5, 6, 7, 6
5, 5, 5, 5
7
*END

*BEGIN
*GROUP		=  0
*START		=  74.25
*STOP		=  76.25
*STEP		=  0.0078
*OFFSET		=  55.11
*SPEED		=  2
*SLIT_SPEC	=  0, 0.500mm, 0.5, 0.000000
*SLIT_SPEC	=  1, 8.000mm, 8, 0.000000
*SLIT_SPEC	=  2, 13.000mm, 13, 0.000000
*KV		=  45
*MA		=  200
*LOW		=  0.000000
*HIGH		=  0.000000
*CTEMPER	=  0, 0.000000
*CTEMPER	=  1, 0.000000
*CTEMPER	=  2, 0.000000
*PAREX		=  0, 0.000000
*PAREX		=  1, 0.000000
*PAREX		=  2, 0.000000
[...]
*FULL_SCALE	=  25000
*INDEX		=  0, 0, 0
*COUNT		=  257
11, 11, 9, 7
7, 7, 8, 8
9, 11, 12, 12
11, 10, 9, 7
7, 6, 6, 5
5, 7, 11, 11
9, 8, 7, 6
6, 6, 6, 8
9, 9, 8, 8
7, 7, 9, 12
12, 9, 7, 7
7, 7, 6, 5
5, 5, 6, 8
9, 9, 9, 8
7, 6, 7, 8
7, 6, 5, 3
1, 1, 2, 4
8, 11, 8, 4
2, 3, 4, 3
1, 3, 5, 7
6, 5, 5, 6
8, 12, 15, 15
14, 12, 9, 8
10, 12, 11, 7
4, 5, 6, 6
6, 6, 6, 6
8, 10, 12, 13
13, 10, 8, 7
11, 13, 12, 10
10, 12, 13, 13
12, 11, 9, 7
7, 8, 8, 7
8, 9, 11, 13
15, 15, 13, 11
13, 14, 16, 19
21, 18, 14, 12
9, 8, 10, 12
11, 9, 7, 8
8, 8, 8, 8
10, 11, 11, 11
10, 9, 8, 8
9, 9, 9, 9
12, 14, 13, 10
8, 8, 9, 9
8, 9, 10, 12
10, 8, 8, 11
12, 11, 10, 8
6, 5, 6, 7
7, 7, 7, 8
9, 8, 6, 5
7, 8, 8, 7
7, 6, 7, 11
16, 15, 9, 5
6, 8, 8, 7
6, 7, 8, 9
10, 11, 9, 8
8, 7, 7, 8
9, 10, 11, 11
10, 8, 8, 7
7, 8, 9, 9
9, 9, 8, 8
6, 5, 6, 6
7, 6, 6, 7
8, 9, 10, 11
8
*END

*BEGIN
*GROUP		=  0
*START		=  74.25
*STOP		=  76.25
*STEP		=  0.0078
*OFFSET		=  57.04
*SPEED		=  2
*SLIT_SPEC	=  0, 0.500mm, 0.5, 0.000000
*SLIT_SPEC	=  1, 8.000mm, 8, 0.000000
*SLIT_SPEC	=  2, 13.000mm, 13, 0.000000
*KV		=  45
*MA		=  200
*LOW		=  0.000000
*HIGH		=  0.000000
*CTEMPER	=  0, 0.000000
*CTEMPER	=  1, 0.000000
*CTEMPER	=  2, 0.000000
*PAREX		=  0, 0.000000
*PAREX		=  1, 0.000000
*PAREX		=  2, 0.000000
*PAREX		=  3, 0.000000
*PAREX		=  4, 0.000000
*PAREX		=  5, 0.000000
*PAREX		=  6, 0.000000
*PAREX		=  7, 0.000000
*PAREX		=  8, 0.000000
*PAREX		=  9, 0.000000
*PAREX		=  10, 0.000000
*PAREX		=  11, 0.000000
*PAREX		=  12, 0.000000
*PAREX		=  13, 0.000000
*PAREX		=  14, 0.000000
*PAREX		=  15, 0.000000
*FULL_SCALE	=  25000
*INDEX		=  0, 0, 0
*COUNT		=  257
6, 5, 6, 6
5, 4, 5, 5
6, 5, 5, 5
5, 6, 8, 11
10, 9, 8, 5
4, 6, 8, 8
7, 6, 6, 6
7, 7, 8, 7
6, 6, 6, 6
5, 5, 5, 4
5, 6, 7, 9
10, 10, 9, 8
7, 5, 6, 6
7, 8, 9, 7
5, 4, 6, 7
6, 3, 2, 4
6, 5, 4, 4
7, 9, 7, 6
5, 6, 6, 6
6, 6, 7, 7
6, 6, 8, 10
11, 9, 7, 9
10, 10, 9, 8
6, 4, 4, 6
7, 7, 7, 6
5, 5, 10, 14
12, 9, 7, 6
5, 5, 5, 5
6, 6, 9, 12
13, 12, 12, 12
13, 12, 10, 9
10, 11, 12, 12
12, 10, 8, 9
12, 13, 12, 12
17, 23, 23, 18
13, 12, 11, 10
8, 7, 9, 10
11, 12, 12, 12
12, 10, 8, 8
11, 14, 11, 7
7, 12, 16, 13
10, 9, 11, 12
12, 11, 10, 9
9, 10, 12, 11
9, 7, 8, 9
10, 12, 12, 9
7, 7, 7, 8
10, 12, 10, 9
7, 5, 5, 8
12, 12, 12, 11
12, 13, 11, 8
7, 6, 6, 6
6, 6, 7, 7
6, 5, 6, 8
9, 10, 11, 11
11, 10, 8, 7
7, 8, 8, 7
6, 8, 10, 13
14, 15, 11, 7
7, 10, 13, 13
12, 11, 9, 8
10, 11, 10, 10
8, 6, 3, 2
1, 2, 8, 12
12
*END

*BEGIN
*GROUP		=  0
*START		=  74.25
*STOP		=  76.25
*STEP		=  0.0078
*OFFSET		=  57.045
*SPEED		=  2
*SLIT_SPEC	=  0, 0.500mm, 0.5, 0.000000
*SLIT_SPEC	=  1, 8.000mm, 8, 0.000000
*SLIT_SPEC	=  2, 13.000mm, 13, 0.000000
*KV		=  45
*MA		=  200
*LOW		=  0.000000
*HIGH		=  0.000000
*CTEMPER	=  0, 0.000000
*CTEMPER	=  1, 0.000000
*CTEMPER	=  2, 0.000000
*PAREX		=  0, 0.000000
*PAREX		=  1, 0.000000
*PAREX		=  2, 0.000000
*PAREX		=  3, 0.000000
*PAREX		=  4, 0.000000
*PAREX		=  5, 0.000000
*PAREX		=  6, 0.000000
*PAREX		=  7, 0.000000
*PAREX		=  8, 0.000000
*PAREX		=  9, 0.000000
*PAREX		=  10, 0.000000
*PAREX		=  11, 0.000000
*PAREX		=  12, 0.000000
*PAREX		=  13, 0.000000
*PAREX		=  14, 0.000000
*PAREX		=  15, 0.000000
*FULL_SCALE	=  25000
*INDEX		=  0, 0, 0
*COUNT		=  257
9, 9, 7, 6
5, 4, 5, 6
7, 6, 6, 5
5, 4, 5, 5
6, 7, 8, 7
6, 8, 10, 10
8, 6, 7, 8
7, 7, 6, 5
4, 5, 5, 6
7, 8, 6, 4
4, 5, 6, 8
11, 10, 7, 4
5, 7, 9, 11
12, 9, 6, 5
4, 5, 7, 8
8, 6, 6, 7
9, 11, 12, 12
10, 8, 7, 5
6, 8, 8, 6
4, 4, 6, 7
9, 11, 10, 10
9, 7, 6, 7
8, 8, 8, 8
8, 8, 8, 7
6, 6, 7, 7
7, 7, 6, 5
5, 5, 5, 5
5, 6, 8, 8
7, 5, 4, 3
4, 8, 10, 8
6, 7, 9, 11
10, 8, 9, 11
12, 13, 14, 12
10, 10, 11, 12
11, 10, 11, 14
15, 11, 7, 6
8, 10, 11, 12
10, 8, 7, 9
11, 11, 11, 11
14, 16, 15, 12
10, 7, 5, 6
7, 7, 8, 9
8, 7, 7, 6
6, 6, 6, 6
7, 7, 8, 9
8, 6, 6, 7
9, 10, 11, 10
8, 6, 7, 9
8, 8, 7, 5
4, 4, 6, 7
6, 5, 6, 7
8, 8, 8, 8
8, 7, 6, 5
6, 8, 9, 11
12, 10, 9, 8
7, 7, 8, 8
8, 8, 8, 7
7, 6, 5, 5
6, 8, 7, 6
6, 7, 7, 7
6, 6, 6, 6
5, 5, 5, 6
6, 4, 3, 4
5, 6, 7, 8
7
*END

*BEGIN
*GROUP		=  0
*START		=  74.25
*STOP		=  76.25
*STEP		=  0.0078
*OFFSET		=  57.05
*SPEED		=  2
*SLIT_SPEC	=  0, 0.500mm, 0.5, 0.000000
*SLIT_SPEC	=  1, 8.000mm, 8, 0.000000
*SLIT_SPEC	=  2, 13.000mm, 13, 0.000000
*KV		=  45
*MA		=  200
*LOW		=  0.000000
*HIGH		=  0.000000
*CTEMPER	=  0, 0.000000
*CTEMPER	=  1, 0.000000
*CTEMPER	=  2, 0.000000
*PAREX		=  0, 0.000000
*PAREX		=  1, 0.000000
*PAREX		=  2, 0.000000
*PAREX		=  3, 0.000000
*PAREX		=  4, 0.000000
*PAREX		=  5, 0.000000
*PAREX		=  6, 0.000000
*PAREX		=  7, 0.000000
*PAREX		=  8, 0.000000
*PAREX		=  9, 0.000000
*PAREX		=  10, 0.000000
*PAREX		=  11, 0.000000
*PAREX		=  12, 0.000000
*PAREX		=  13, 0.000000
*PAREX		=  14, 0.000000
*PAREX		=  15, 0.000000
*FULL_SCALE	=  25000
*INDEX		=  0, 0, 0
*COUNT		=  257
8, 9, 10, 10
8, 5, 4, 4
4, 6, 7, 7
8, 8, 8, 8
7, 6, 5, 5
5, 5, 6, 6
5, 4, 6, 8
8, 7, 6, 6
6, 6, 7, 7
6, 5, 5, 6
6, 5, 4, 6
7, 8, 9, 9
8, 7, 7, 8
8, 8, 7, 7
7, 7, 6, 6
6, 5, 5, 6
7, 5, 4, 3
4, 4, 4, 4
4, 5, 6, 5
4, 4, 4, 5
7, 9, 9, 8
8, 7, 6, 8
11, 12, 12, 12
10, 8, 6, 5
4, 5, 7, 7
8, 8, 8, 8
9, 11, 11, 9
7, 7, 7, 7
7, 7, 10, 13
14, 13, 12, 9
6, 6, 8, 9
9, 9, 7, 4
3, 6, 8, 9
9, 9, 7, 6
6, 7, 8, 10
12, 12, 12, 11
10, 9, 10, 12
12, 11, 11, 12
12, 11, 9, 8
10, 11, 12, 13
12, 10, 8, 7
6, 7, 8, 9
9, 8, 9, 11
12, 10, 8, 7
7, 7, 8, 8
9, 10, 10, 9
7, 9, 11, 10
8, 6, 7, 8
9, 9, 9, 7
5, 6, 8, 8
5, 3, 2, 2
3, 7, 11, 12
13, 12, 9, 6
7, 8, 8, 7
7, 9, 10, 10
8, 8, 9, 11
10, 9, 8, 8
8, 8, 7, 7
6, 5, 4, 3
4, 6, 8, 8
7, 6, 6, 5
6, 6, 7, 8
8, 6, 4, 4
4, 6, 12, 17
14
*END

*BEGIN
*GROUP		=  0
*START		=  74.25
*STOP		=  76.25
*STEP		=  0.0078
*OFFSET		=  57.055
*SPEED		=  2
*SLIT_SPEC	=  0, 0.500mm, 0.5, 0.000000
*SLIT_SPEC	=  1, 8.000mm, 8, 0.000000
*SLIT_SPEC	=  2, 13.000mm, 13, 0.000000
*KV		=  45
*MA		=  200
*LOW		=  0.000000
*HIGH		=  0.000000
*CTEMPER	=  0, 0.000000
*CTEMPER	=  1, 0.000000
*CTEMPER	=  2, 0.000000
*PAREX		=  0, 0.000000
*PAREX		=  1, 0.000000
*PAREX		=  2, 0.000000
*PAREX		=  3, 0.000000
*PAREX		=  4, 0.000000
*PAREX		=  5, 0.000000
*PAREX		=  6, 0.000000
*PAREX		=  7, 0.000000
*PAREX		=  8, 0.000000
*PAREX		=  9, 0.000000
*PAREX		=  10, 0.000000
*PAREX		=  11, 0.000000
*PAREX		=  12, 0.000000
*PAREX		=  13, 0.000000
*PAREX		=  14, 0.000000
*PAREX		=  15, 0.000000
*FULL_SCALE	=  25000
*INDEX		=  0, 0, 0
*COUNT		=  257
2, 3, 8, 11
10, 9, 7, 4
2, 3, 3, 4
5, 6, 6, 6
7, 8, 8, 7
7, 7, 6, 6
7, 8, 7, 6
7, 8, 8, 6
5, 4, 4, 5
6, 8, 7, 6
6, 7, 7, 7
6, 7, 8, 8
6, 4, 4, 6
7, 5, 3, 4
8, 9, 7, 5
6, 9, 9, 8
7, 8, 9, 9
6, 3, 2, 1
3, 8, 10, 9
8, 7, 8, 8
7, 7, 8, 8
9, 8, 7, 8
9, 10, 10, 10
8, 7, 7, 9
11, 12, 13, 12
10, 9, 7, 6
7, 8, 8, 5
2, 4, 6, 7
6, 5, 7, 10
12, 13, 13, 10
8, 8, 9, 9
6, 3, 4, 8
10, 11, 11, 11
12, 13, 15, 17
17, 17, 16, 15
13, 12, 10, 10
9, 9, 10, 11
11, 12, 12, 11
10, 10, 11, 11
9, 8, 10, 12
12, 11, 9, 9
9, 10, 11, 12
11, 10, 9, 8
7, 6, 4, 5
6, 7, 5, 4
7, 10, 11, 7
5, 6, 9, 10
10, 10, 10, 9
9, 9, 9, 11
13, 12, 9, 7
8, 9, 8, 7
7, 8, 9, 9
9, 9, 10, 10
11, 12, 12, 10
8, 9, 11, 11
11, 11, 10, 10
10, 9, 8, 5
3, 4, 7, 8
9, 9, 8, 7
8, 10, 11, 10
9, 9, 10, 10
8, 7, 8, 8
9, 8, 7, 8
10, 11, 10, 10
10
*END

*BEGIN
*GROUP		=  0
*START		=  74.25
*STOP		=  76.25
*STEP		=  0.0078
*OFFSET		=  57.06
*SPEED		=  2
*SLIT_SPEC	=  0, 0.500mm, 0.5, 0.000000
*SLIT_SPEC	=  1, 8.000mm, 8, 0.000000
*SLIT_SPEC	=  2, 13.000mm, 13, 0.000000
*KV		=  45
*MA		=  200
*LOW		=  0.000000
*HIGH		=  0.000000
*CTEMPER	=  0, 0.000000
*CTEMPER	=  1, 0.000000
*CTEMPER	=  2, 0.000000
*PAREX		=  0, 0.000000
*PAREX		=  1, 0.000000
*PAREX		=  2, 0.000000
*PAREX		=  3, 0.000000
*PAREX		=  4, 0.000000
*PAREX		=  5, 0.000000
*PAREX		=  6, 0.000000
*PAREX		=  7, 0.000000
*PAREX		=  8, 0.000000
*PAREX		=  9, 0.000000
*PAREX		=  10, 0.000000
*PAREX		=  11, 0.000000
*PAREX		=  12, 0.000000
*PAREX		=  13, 0.000000
*PAREX		=  14, 0.000000
*PAREX		=  15, 0.000000
*FULL_SCALE	=  25000
*INDEX		=  0, 0, 0
*COUNT		=  257
7, 6, 7, 8
8, 7, 6, 6
5, 5, 5, 5
5, 5, 4, 4
4, 4, 5, 6
7, 8, 9, 9
10, 10, 8, 7
6, 7, 7, 6
6, 6, 7, 7
8, 8, 9, 10
9, 8, 7, 7
6, 6, 5, 5
7, 8, 10, 12
13, 10, 7, 7
8, 8, 7, 5
4, 3, 3, 5
8, 8, 7, 7
8, 8, 7, 6
6, 5, 5, 5
6, 5, 5, 4
5, 5, 6, 8
9, 7, 6, 6
7, 7, 6, 6
5, 4, 5, 8
10, 9, 8, 6
4, 3, 4, 4
4, 4, 4, 5
5, 5, 6, 7
8, 9, 7, 6
6, 8, 9, 8
6, 6, 8, 8
6, 3, 4, 6
7, 6, 5, 7
10, 11, 11, 11
13, 15, 15, 14
13, 13, 12, 13
15, 16, 15, 14
12, 9, 7, 8
8, 7, 7, 7
9, 11, 10, 9
7, 5, 3, 3
3, 5, 7, 9
8, 6, 6, 6
7, 8, 10, 9
8, 7, 8, 8
11, 13, 14, 11
9, 10, 11, 11
10, 9, 8, 6
8, 10, 12, 11
10, 12, 14, 15
12, 10, 8, 6
6, 8, 11, 10
9, 9, 9, 9
7, 5, 4, 5
6, 5, 4, 5
7, 8, 6, 5
6, 8, 9, 11
12, 10, 8, 7
8, 9, 8, 7
7, 7, 7, 7
7, 9, 11, 13
12, 12, 11, 10
10, 12, 13, 12
10, 9, 10, 11
10
*END

*EOF