Folder: edoxrd/examples/example_data

File: e16014_02_-103_PTO_RSM_2-Theta.asc
*TYPE		=  Raw
*CLASS		=
*SAMPLE		=
*COMMENT	=
*FNAME		=  e16014_02_-103_PTO_RSM_2-Theta.asc
*DATE		=  08-Mar-16 00:55

*GROUP_COUNT	=  1
*GONIO		=  SmartLab, 0.000000
*ATTACHMENT	=  Chi phi Z cradle
*ASC		=  0, 0, 0.000000, 0.000000
*I_MONOCHRO	=  Ge(220)x2, 0.000000
*FILTER		=  None
*C_MONOCHRO	=  None, 0.000000
*SLIT_NAME	=  0, Incident slit
*SLIT_NAME	=  1, Receiving slit # 1
*SLIT_NAME	=  2, Receiving slit # 2
*COUNTER	=  D/teX Ultra, 0
*POS_FORMAT	=  0
*SCAN_AXIS	=  2theta
*MEAS_MODE	=  FT
*TARGET		=  29
*XRAY_CHAR	=  K-ALPHA1
*WAVE_LENGTH1	=  1.54059
*WAVE_LENGTH2	=  1.54441
*THICKNESS	=  0, 0.000000
*MU		=  0, 0.000000
*SCAN_MODE	=  2theta
*SPEED_DIM	=  sec./step(FT)
*XUNIT		=  deg.
*YUNIT		=  counts
*SCALE_MODE	=  1
*REP_COUNT	=  0
*SE_COUNT	=  0
*STD_MATERIAL	=  Unknown, Unknown, 0.000000, 0.000000, 0.000000, 0.000000, 0.000000, 0.000000
*LATT_CONS	=  0, Unknown, Unknown, 0.000000, 0.000000, 0.000000, 0.000000, 0.000000, 0.000000
*SEC_COUNT	=  601
*TSPEC_SIZE	=  0
*EXTRA_SIZE	=  0
*MEMO		=

*BEGIN
*GROUP		=  0
*START		=  76.25
*STOP		=  78.25
*STEP		=  0.0078
*OFFSET		=  53.065
*SPEED		=  15
*SLIT_SPEC	=  0, 0.500mm, 0.5, 0.000000
*SLIT_SPEC	=  1, 8.000mm, 8, 0.000000
*SLIT_SPEC	=  2, 13.000mm, 13, 0.000000
*KV		=  45
*MA		=  200
*LOW		=  0.000000
*HIGH		=  0.000000
*CTEMPER	=  0, 0.000000
*CTEMPER	=  1, 0.000000
*CTEMPER	=  2, 0.000000
*PAREX		=  0, 0.000000
*PAREX		=  1, 0.000000
*PAREX		=  2, 0.000000
*PAREX		=  3, 0.000000
*PAREX		=  4, 0.000000
*PAREX		=  5, 0.000000
*PAREX		=  6, 0.000000
*PAREX		=  7, 0.000000
*PAREX		=  8, 0.000000
*PAREX		=  9, 0.000000
*PAREX		=  10, 0.000000
*PAREX		=  11, 0.000000
*PAREX		=  12, 0.000000
*PAREX		=  13, 0.000000
*PAREX		=  14, 0.000000
*PAREX		=  15, 0.000000
*FULL_SCALE	=  25000
*INDEX		=  0, 0, 0
*COUNT		=  257
67, 69, 72, 73
69, 65, 64, 64
65, 69, 72, 70
67, 65, 64, 63
63, 63, 63, 63
64, 69, 75, 75
71, 68, 71, 75
70, 62, 58, 66
75, 74, 70, 68
66, 65, 66, 67
64, 56, 49, 51
54, 57, 61, 64
63, 62, 64, 68
73, 80, 88, 87
83, 77, 66, 56
54, 54, 57, 63
69, 65, 60, 60
64, 68, 69, 70
67, 63, 61, 68
75, 74, 70, 67
69, 70, 68, 66
65, 67, 70, 69
68, 66, 61, 57
55, 53, 52, 53
54, 60, 66, 66
63, 60, 61, 61
67, 75, 78, 71
65, 65, 67, 66
60, 56, 59, 63
64, 63, 61, 55
49, 52, 59, 64
63, 61, 60, 58
57, 58, 58, 60
63, 63, 59, 56
57, 59, 60, 61
63, 76, 89, 87
73, 64, 66, 70
68, 65, 62, 61
60, 63, 67, 65
55, 47, 53, 62
66, 65, 63, 56
48, 49, 57, 64
73, 82, 74, 58
49, 59, 69, 69
66, 63, 59, 55
60, 66, 69, 66
63, 64, 65, 62
56, 52, 52, 53
56, 61, 64, 60
56, 57, 60, 63
65, 67, 67, 66
66, 67, 68, 68
69, 67, 64, 61
58, 55, 55, 58
61, 68, 74, 72
66, 62, 67, 71
65, 57, 53, 55
58, 62, 67, 70
71, 71, 68, 64
63, 64, 66, 70
75, 73, 68, 64
65, 66, 63, 59
57, 55, 54, 54
55, 54, 51, 49
54
*END

*BEGIN
*GROUP		=  0
*START		=  76.25
*STOP		=  78.25
*STEP		=  0.0078
*OFFSET		=  53.075
*SPEED		=  15
*SLIT_SPEC	=  0, 0.500mm, 0.5, 0.000000
*SLIT_SPEC	=  1, 8.000mm, 8, 0.000000
*SLIT_SPEC	=  2, 13.000mm, 13, 0.000000
*KV		=  45
*MA		=  200
*LOW		=  0.000000
*HIGH		=  0.000000
*CTEMPER	=  0, 0.000000
*CTEMPER	=  1, 0.000000
*CTEMPER	=  2, 0.000000
*PAREX		=  0, 0.000000
*PAREX		=  1, 0.000000
*PAREX		=  2, 0.000000
*PAREX		=  3, 0.000000
*PAREX		=  4, 0.000000
*PAREX		=  5, 0.000000
*PAREX		=  6, 0.000000
*PAREX		=  7, 0.000000
*PAREX		=  8, 0.000000
*PAREX		=  9, 0.000000
*PAREX		=  10, 0.000000
*PAREX		=  11, 0.000000
*PAREX		=  12, 0.000000
*PAREX		=  13, 0.000000
*PAREX		=  14, 0.000000
*PAREX		=  15, 0.000000
*FULL_SCALE	=  25000
*INDEX		=  0, 0, 0
*COUNT		=  257
55, 57, 59, 61
59, 57, 57, 56
57, 62, 67, 69
69, 68, 63, 58
57, 57, 58, 61
63, 62, 61, 62
64, 66, 71, 75
73, 66, 62, 63
63, 59, 53, 50
53, 57, 61, 66
68, 64, 62, 63
64, 63, 59, 57
57, 59, 64, 72
77, 71, 64, 63
63, 66, 73, 79
71, 59, 53, 55
59, 67, 77, 81
80, 78, 73, 68
63, 58, 56, 61
67, 66, 61, 58
58, 58, 55, 51
51, 55, 58, 61
62, 61, 56, 52
58, 64, 68, 69
70, 71, 72, 67
59, 54, 58, 61
69, 77, 79, 68
57, 56, 57, 57
58, 58, 57, 56
57, 61, 64, 64
65, 67, 69, 69
61, 54, 62, 77
86, 80, 74, 74
77, 77, 72, 68
67, 67, 67, 68
68, 66, 62, 62
64, 65, 64, 62
62, 64, 65, 67
67, 61, 53, 49
53, 57, 61, 65
65, 62, 58, 57
56, 57, 58, 59
57, 55, 57, 62
68, 75, 83, 76
64, 57, 59, 62
65, 67, 67, 63
60, 61, 62, 62
59, 58, 63, 68
66, 60, 56, 56
58, 62, 68, 70
63, 56, 60, 67
69, 66, 62, 58
53, 57, 68, 77
71, 63, 61, 64
65, 61, 57, 59
64, 66, 60, 55
55, 58, 61, 63
65, 68, 72, 71
65, 61, 69, 79
77, 66, 58, 57
57, 61, 66, 67
58, 50, 48, 49
53, 60, 66, 63
58, 57, 60, 63
63
*END

*BEGIN
*GROUP		=  0
*START		=  76.25
*STOP		=  78.25
*STEP		=  0.0078
*OFFSET		=  53.085
*SPEED		=  15
*SLIT_SPEC	=  0, 0.500mm, 0.5, 0.000000
*SLIT_SPEC	=  1, 8.000mm, 8, 0.000000
*SLIT_SPEC	=  2, 13.000mm, 13, 0.000000
*KV		=  45
*MA		=  200
*LOW		=  0.000000
*HIGH		=  0.000000
*CTEMPER	=  0, 0.000000
*CTEMPER	=  1, 0.000000
*CTEMPER	=  2, 0.000000
*PAREX		=  0, 0.000000
*PAREX		=  1, 0.000000
*PAREX		=  2, 0.000000
*PAREX		=  3, 0.000000
*PAREX		=  4, 0.000000
*PAREX		=  5, 0.000000
*PAREX		=  6, 0.000000
*PAREX		=  7, 0.000000
*PAREX		=  8, 0.000000
*PAREX		=  9, 0.000000
*PAREX		=  10, 0.000000
*PAREX		=  11, 0.000000
*PAREX		=  12, 0.000000
*PAREX		=  13, 0.000000
*PAREX		=  14, 0.000000
*PAREX		=  15, 0.000000
*FULL_SCALE	=  25000
*INDEX		=  0, 0, 0
*COUNT		=  257
68, 71, 72, 70
61, 52, 54, 61
67, 70, 72, 66
58, 55, 61, 67
71, 74, 72, 63
58, 67, 78, 80
75, 69, 64, 60
57, 55, 54, 57
60, 62, 62, 63
63, 63, 60, 58
55, 54, 53, 53
54, 58, 65, 70
67, 63, 59, 55
51, 50, 49, 52
57, 58, 50, 44
46, 51, 57, 64
70, 68, 63, 62
64, 66, 69, 71
67, 60, 54, 58
62, 62, 60, 59
62, 64, 62, 58
57, 62, 66, 66
65, 65, 64, 65
68, 71, 70, 65
62, 64, 67, 64
57, 53, 56, 58
59, 59, 59, 59
59, 59, 59, 58
57, 57, 62, 68
71, 72, 72, 67
62, 65, 74, 77
65, 53, 58, 70
76, 71, 65, 66
69, 68, 63, 59
60, 63, 66, 69
73, 78, 84, 81
73, 66, 62, 58
61, 66, 69, 67
65, 63, 61, 63
72, 80, 78, 73
73, 78, 82, 73
63, 61, 68, 72
69, 66, 66, 68
69, 66, 62, 60
58, 59, 63, 68
68, 66, 65, 66
67, 68, 69, 68
66, 65, 70, 75
75, 72, 69, 66
63, 63, 65, 66
68, 69, 68, 66
65, 67, 68, 70
71, 74, 77, 79
74, 67, 63, 59
56, 57, 58, 59
60, 61, 60, 59
59, 58, 59, 61
64, 63, 62, 62
62, 63, 67, 71
71, 68, 64, 59
54, 53, 53, 53
49, 46, 50, 57
61, 59, 56, 56
55, 57, 60, 64
65
*END

*BEGIN
*GROUP		=  0
*START		=  76.25
*STOP		=  78.25
*STEP		=  0.0078
*OFFSET		=  53.095
*SPEED		=  15
*SLIT_SPEC	=  0, 0.500mm, 0.5, 0.000000
*SLIT_SPEC	=  1, 8.000mm, 8, 0.000000
*SLIT_SPEC	=  2, 13.000mm, 13, 0.000000
*KV		=  45
*MA		=  200
*LOW		=  0.000000
*HIGH		=  0.000000
*CTEMPER	=  0, 0.000000
*CTEMPER	=  1, 0.000000
*CTEMPER	=  2, 0.000000
*PAREX		=  0, 0.000000
*PAREX		=  1, 0.000000
*PAREX		=  2, 0.000000
*PAREX		=  3, 0.000000
*PAREX		=  4, 0.000000
*PAREX		=  5, 0.000000
*PAREX		=  6, 0.000000
*PAREX		=  7, 0.000000
*PAREX		=  8, 0.000000
*PAREX		=  9, 0.000000
*PAREX		=  10, 0.000000
*PAREX		=  11, 0.000000
*PAREX		=  12, 0.000000
*PAREX		=  13, 0.000000
*PAREX		=  14, 0.000000
*PAREX		=  15, 0.000000
*FULL_SCALE	=  25000
*INDEX		=  0, 0, 0
*COUNT		=  257
63, 62, 65, 67
65, 62, 60, 58
58, 59, 61, 64
68, 69, 65, 61
59, 58, 56, 54
54, 62, 73, 76
75, 74, 75, 77
77, 76, 75, 69
64, 60, 57, 55
54, 54, 51, 49
49, 55, 60, 66
71, 74, 73, 71
67, 63, 62, 64
65, 66, 67, 66
65, 63, 60, 58
58, 59, 61, 67
72, 72, 71, 67
61, 56, 56, 57
60, 65, 69, 69
70, 68, 66, 64
65, 66, 61, 55
54, 62, 69, 69
68, 70, 73, 75
69, 63, 64, 70
74, 70, 64, 58
51, 47, 52, 56
59, 61, 60, 54
49, 55, 64, 66
61, 56, 56, 57
60, 65, 68, 63
57, 53, 50, 50
60, 70, 71, 69
67, 63, 60, 64
70, 72, 70, 67
65, 64, 62, 60
59, 64, 70, 67
57, 50, 53, 57
61, 66, 69, 71
73, 73, 72, 71
68, 65, 61, 56
55, 58, 61, 59
56, 58, 65, 69
65, 61, 62, 64
66, 65, 64, 61
57, 57, 63, 69
70, 70, 68, 64
60, 61, 63, 63
62, 62, 68, 74
73, 67, 63, 60
58, 56, 55, 54
52, 52, 58, 67
69, 60, 52, 48
45, 47, 56, 63
63, 62, 64, 69
73, 68, 63, 60
57, 56, 61, 65
62, 58, 56, 59
62, 62, 62, 64
67, 69, 65, 61
57, 53, 52, 58
65, 67, 67, 67
68, 68, 65, 62
60, 59, 59, 59
59, 62, 70, 76
72
*END

*BEGIN
*GROUP		=  0
*START		=  76.25
*STOP		=  78.25
*STEP		=  0.0078
*OFFSET		=  53.105
*SPEED		=  15
*SLIT_SPEC	=  0, 0.500mm, 0.5, 0.000000
*SLIT_SPEC	=  1, 8.000mm, 8, 0.000000
*SLIT_SPEC	=  2, 13.000mm, 13, 0.000000
*KV		=  45
*MA		=  200
*LOW		=  0.000000
*HIGH		=  0.000000
*CTEMPER	=  0, 0.000000
*CTEMPER	=  1, 0.000000
*CTEMPER	=  2, 0.000000
*PAREX		=  0, 0.000000
*PAREX		=  1, 0.000000
*PAREX		=  2, 0.000000
*PAREX		=  3, 0.000000
*PAREX		=  4, 0.000000
*PAREX		=  5, 0.000000
*PAREX		=  6, 0.000000
*PAREX		=  7, 0.000000
*PAREX		=  8, 0.000000
*PAREX		=  9, 0.000000
*PAREX		=  10, 0.000000
*PAREX		=  11, 0.000000
*PAREX		=  12, 0.000000
*PAREX		=  13, 0.000000
*PAREX		=  14, 0.000000
*PAREX		=  15, 0.000000
*FULL_SCALE	=  25000
*INDEX		=  0, 0, 0
*COUNT		=  257
67, 67, 68, 69
69, 70, 67, 64
62, 66, 69, 65
59, 57, 63, 68
71, 73, 71, 66
62, 64, 67, 69
71, 72, 73, 74
67, 56, 49, 53
57, 61, 64, 66
66, 66, 69, 71
69, 60, 53, 55
59, 58, 53, 50
56, 63, 66, 67
68, 70, 72, 70
67, 65, 66, 68
68, 67, 66, 62
60, 65, 71, 70
64, 58, 58, 60
60, 60, 61, 67
72, 71, 66, 64
65, 66, 61, 54
51, 54, 57, 59
60, 62, 63, 64
64, 63, 64, 66
65, 56, 46, 48
56, 61, 57, 53
54, 57, 61, 67
72, 69, 64, 63
68, 72, 70, 67
65, 62, 60, 58
56, 59, 66, 70
69, 68, 71, 76
76, 68, 61, 63
69, 69, 62, 56
66, 78, 81, 74
69, 73, 77, 75
68, 63, 64, 65
65, 63, 63, 66
68, 64, 59, 56
59, 62, 63, 64
65, 66, 66, 68
71, 71, 69, 69
70, 72, 69, 63
60, 67, 74, 67
55, 49, 53, 58
64, 70, 72, 69
66, 71, 78, 74
62, 52, 57, 64
67, 67, 68, 68
68, 63, 57, 53
51, 50, 52, 55
59, 64, 69, 66
61, 58, 57, 56
59, 63, 66, 68
69, 69, 68, 65
60, 57, 57, 57
60, 64, 65, 62
60, 59, 60, 60
59, 59, 62, 65
63, 58, 53, 49
46, 49, 55, 58
55, 52, 55, 61
63, 56, 51, 53
58, 65, 75, 82
74
*END

*BEGIN
*GROUP		=  0
*START		=  76.25
*STOP		=  78.25
*STEP		=  0.0078
*OFFSET		=  53.115
*SPEED		=  15
*SLIT_SPEC	=  0, 0.500mm, 0.5, 0.000000
*SLIT_SPEC	=  1, 8.000mm, 8, 0.000000
*SLIT_SPEC	=  2, 13.000mm, 13, 0.000000
*KV		=  45
*MA		=  200
*LOW		=  0.000000
*HIGH		=  0.000000
*CTEMPER	=  0, 0.000000
*CTEMPER	=  1, 0.000000
*CTEMPER	=  2, 0.000000
*PAREX		=  0, 0.000000
*PAREX		=  1, 0.000000
*PAREX		=  2, 0.000000
*PAREX		=  3, 0.000000
*PAREX		=  4, 0.000000
*PAREX		=  5, 0.000000
*PAREX		=  6, 0.000000
*PAREX		=  7, 0.000000
*PAREX		=  8, 0.000000
*PAREX		=  9, 0.000000
*PAREX		=  10, 0.000000
*PAREX		=  11, 0.000000
*PAREX		=  12, 0.000000
*PAREX		=  13, 0.000000
*PAREX		=  14, 0.000000
*PAREX		=  15, 0.000000
*FULL_SCALE	=  25000
*INDEX		=  0, 0, 0
*COUNT		=  257
57, 61, 71, 78
76, 74, 66, 56
51, 55, 60, 65
69, 71, 69, 66
66, 65, 66, 69
71, 66, 60, 60
64, 65, 58, 51
52, 58, 62, 59
57, 57, 58, 59
60, 60, 63, 65
65, 62, 59, 62
66, 65, 59, 54
53, 52, 55, 61
67, 72, 76, 70
60, 54, 57, 60
61, 61, 62, 64
66, 62, 57, 57
61, 64, 65, 66
65, 62, 61, 62
64, 64, 64, 62
60, 58, 61, 66
66, 60, 54, 57
61, 65, 68, 70
65, 59, 61, 71
77, 68, 59, 57
59, 61, 61, 61
62, 62, 62, 61
59, 58, 56, 57
61, 65, 59, 52
51, 54, 56, 52
48, 53, 65, 72
65, 57, 57, 61
63, 61, 60, 61
63, 62, 58, 55
59, 64, 67, 67
68, 72, 76, 78
77, 75, 72, 69
63, 55, 52, 59
65, 63, 58, 56
57, 58, 64, 71
73, 68, 63, 60
57, 58, 62, 64
62, 60, 63, 68
69, 57, 45, 42
43, 44, 45, 47
50, 52, 54, 55
57, 64, 73, 70
56, 47, 62, 78
79, 69, 62, 62
63, 59, 54, 51
49, 48, 51, 54
57, 58, 60, 58
56, 54, 53, 51
53, 54, 55, 55
55, 55, 54, 53
53, 53, 58, 62
54, 43, 39, 49
60, 65, 70, 70
65, 61, 57, 54
54, 56, 59, 60
61, 63, 65, 68
70, 72, 68, 62
58, 58, 58, 58
57, 59, 63, 67
71
*END

*BEGIN
*GROUP		=  0
*START		=  76.25
*STOP		=  78.25
*STEP		=  0.0078
*OFFSET		=  53.125
*SPEED		=  15
*SLIT_SPEC	=  0, 0.500mm, 0.5, 0.000000
*SLIT_SPEC	=  1, 8.000mm, 8, 0.000000
*SLIT_SPEC	=  2, 13.000mm, 13, 0.000000
*KV		=  45
*MA		=  200
*LOW		=  0.000000
*HIGH		=  0.000000
*CTEMPER	=  0, 0.000000
*CTEMPER	=  1, 0.000000
*CTEMPER	=  2, 0.000000
*PAREX		=  0, 0.000000
*PAREX		=  1, 0.000000
*PAREX		=  2, 0.000000
*PAREX		=  3, 0.000000
*PAREX		=  4, 0.000000
*PAREX		=  5, 0.000000
*PAREX		=  6, 0.000000
*PAREX		=  7, 0.000000
*PAREX		=  8, 0.000000
*PAREX		=  9, 0.000000
*PAREX		=  10, 0.000000
*PAREX		=  11, 0.000000
*PAREX		=  12, 0.000000
*PAREX		=  13, 0.000000
*PAREX		=  14, 0.000000
*PAREX		=  15, 0.000000
*FULL_SCALE	=  25000
*INDEX		=  0, 0, 0
*COUNT		=  257
69, 72, 75, 76
73, 69, 66, 62
60, 58, 57, 59
61, 61, 58, 55
57, 60, 62, 61
61, 66, 72, 75
76, 76, 71, 65
61, 58, 56, 56
56, 58, 61, 62
58, 54, 54, 55
58, 64, 68, 70
71, 71, 69, 67
62, 56, 60, 69
76, 75, 73, 64
53, 45, 45, 45
52, 59, 66, 71
75, 70, 63, 62
65, 67, 62, 55
55, 60, 63, 63
62, 64, 68, 69
64, 60, 58, 56
57, 64, 70, 69
66, 64, 63, 61
62, 63, 59, 53
49, 49, 51, 52
54, 56, 58, 59
58, 56, 55, 56
57, 54, 52, 50
49, 50, 54, 59
58, 53, 50, 56
62, 62, 57, 55
60, 66, 69, 70
72, 75, 78, 76
72, 68, 64, 60
59, 60, 61, 64
67, 71, 74, 72
65, 59, 59, 58
58, 57, 58, 60
61, 59, 56, 56
62, 67, 65, 62
61, 63, 64, 61
58, 56, 56, 56
58, 60, 63, 66
66, 60, 54, 55
58, 62, 68, 73
74, 73, 69, 60
52, 51, 52, 51
50, 51, 64, 78
75, 64, 54, 51
49, 53, 60, 65
65, 65, 61, 56
54, 57, 59, 57
53, 51, 51, 51
52, 53, 54, 56
57, 53, 49, 54
62, 66, 61, 56
56, 58, 59, 58
58, 58, 58, 60
63, 65, 61, 56
58, 66, 70, 66
61, 60, 62, 63
63, 63, 62, 60
61, 66, 71, 69
67, 66, 67, 69
69
*END

*BEGIN
*GROUP		=  0
*START		=  76.25
*STOP		=  78.25
*STEP		=  0.0078
*OFFSET		=  53.135
*SPEED		=  15
*SLIT_SPEC	=  0, 0.500mm, 0.5, 0.000000
*SLIT_SPEC	=  1, 8.000mm, 8, 0.000000
*SLIT_SPEC	=  2, 13.000mm, 13, 0.000000
*KV		=  45
*MA		=  200
*LOW		=  0.000000
*HIGH		=  0.000000
*CTEMPER	=  0, 0.000000
*CTEMPER	=  1, 0.000000
*CTEMPER	=  2, 0.000000
*PAREX		=  0, 0.000000
*PAREX		=  1, 0.000000
*PAREX		=  2, 0.000000
*PAREX		=  3, 0.000000
*PAREX		=  4, 0.000000
*PAREX		=  5, 0.000000
*PAREX		=  6, 0.000000
*PAREX		=  7, 0.000000
*PAREX		=  8, 0.000000
*PAREX		=  9, 0.000000
*PAREX		=  10, 0.000000
*PAREX		=  11, 0.000000
*PAREX		=  12, 0.000000
*PAREX		=  13, 0.000000
*PAREX		=  14, 0.000000
*PAREX		=  15, 0.000000
*FULL_SCALE	=  25000
*INDEX		=  0, 0, 0
*COUNT		=  257
66, 66, 68, 69
64, 59, 57, 55
57, 66, 75, 68
56, 53, 67, 79
76, 69, 65, 64
63, 68, 74, 73
67, 63, 68, 72
72, 70, 65, 56
47, 50, 59, 64
63, 62, 58, 53
54, 62, 69, 67
63, 62, 64, 64
62, 59, 59, 59
60, 60, 61, 63
66, 67, 64, 61
58, 55, 55, 57
60, 65, 70, 73
72, 71, 67, 62
59, 57, 56, 59
63, 67, 70, 73
74, 73, 65, 54
49, 54, 59, 66
73, 73, 66, 58
55, 51, 51, 53
56, 61, 66, 61
51, 44, 46, 49
56, 65, 69, 66
62, 61, 60, 59
58, 57, 58, 61
60, 56, 53, 53
53, 56, 61, 67
75, 83, 80, 71
63, 55, 49, 55
65, 69, 63, 58
61, 65, 68, 69
71, 70, 68, 66
62, 61, 67, 74
69, 57, 51, 60
70, 71, 70, 69
68, 67, 68, 69
70, 73, 75, 69
62, 59, 60, 60
62, 64, 68, 73
74, 66, 58, 55
55, 56, 63, 70
70, 69, 66, 62
59, 61, 64, 65
64, 64, 67, 69
68, 66, 64, 63
62, 63, 63, 62
57, 52, 53, 56
57, 59, 60, 57
54, 56, 62, 66
63, 59, 56, 54
53, 59, 65, 64
59, 56, 59, 61
59, 55, 53, 51
50, 50, 51, 53
56, 60, 67, 75
72, 60, 51, 52
53, 55, 55, 57
63, 69, 70, 70
69, 67, 65, 64
63, 64, 66, 67
63
*END

*BEGIN
*GROUP		=  0
*START		=  76.25
*STOP		=  78.25
*STEP		=  0.0078
*OFFSET		=  53.145
*SPEED		=  15
*SLIT_SPEC	=  0, 0.500mm, 0.5, 0.000000
*SLIT_SPEC	=  1, 8.000mm, 8, 0.000000
*SLIT_SPEC	=  2, 13.000mm, 13, 0.000000
*KV		=  45
*MA		=  200
*LOW		=  0.000000
*HIGH		=  0.000000
*CTEMPER	=  0, 0.000000
*CTEMPER	=  1, 0.000000
*CTEMPER	=  2, 0.000000
*PAREX		=  0, 0.000000
*PAREX		=  1, 0.000000
*PAREX		=  2, 0.000000
*PAREX		=  3, 0.000000
*PAREX		=  4, 0.000000
*PAREX		=  5, 0.000000
*PAREX		=  6, 0.000000
*PAREX		=  7, 0.000000
*PAREX		=  8, 0.000000
*PAREX		=  9, 0.000000
*PAREX		=  10, 0.000000
*PAREX		=  11, 0.000000
*PAREX		=  12, 0.000000
*PAREX		=  13, 0.000000
*PAREX		=  14, 0.000000
*PAREX		=  15, 0.000000
*FULL_SCALE	=  25000
*INDEX		=  0, 0, 0
*COUNT		=  257
56, 56, 57, 57
55, 53, 52, 53
56, 64, 73, 76
78, 76, 69, 62
58, 55, 54, 55
57, 60, 62, 63
64, 65, 69, 73
72, 69, 65, 61
58, 61, 67, 69
62, 57, 62, 70
71, 63, 56, 57
59, 61, 63, 64
59, 54, 58, 66
73, 75, 77, 75
70, 68, 71, 74
69, 61, 59, 65
69, 64, 57, 56
60, 62, 62, 60
59, 57, 58, 68
78, 73, 61, 53
55, 57, 54, 49
49, 58, 66, 68
69, 69, 68, 65
60, 54, 56, 66
72, 68, 63, 58
53, 50, 51, 52
56, 62, 64, 57
52, 53, 57, 59
58, 57, 58, 59
62, 65, 67, 62
56, 56, 58, 59
57, 55, 59, 65
67, 58, 49, 53
59, 64, 67, 69
69, 68, 70, 75
79, 75, 71, 66
62, 59, 62, 66
65, 61, 59, 57
55, 55, 55, 57
62, 66, 67, 68
67, 66, 64, 62
60, 59, 60, 61
66, 71, 79, 87
89, 72, 54, 53
59, 63, 62, 61
62, 63, 64, 66
67, 64, 60, 58
57, 58, 61, 65
65, 63, 62, 66
70, 71, 71, 69
63, 57, 59, 64
70, 77, 83, 74
63, 60, 66, 70
65, 59, 57, 57
56, 53, 49, 52
58, 63, 65, 66
65, 64, 62, 60
58, 60, 64, 68
71, 72, 65, 56
53, 55, 56, 56
57, 61, 67, 72
76, 79, 72, 61
54, 52, 51, 53
56, 60, 65, 69
70
*END

*BEGIN
*GROUP		=  0
*START		=  76.25
*STOP		=  78.25
*STEP		=  0.0078
*OFFSET		=  53.155
*SPEED		=  15
*SLIT_SPEC	=  0, 0.500mm, 0.5, 0.000000
*SLIT_SPEC	=  1, 8.000mm, 8, 0.000000
*SLIT_SPEC	=  2, 13.000mm, 13, 0.000000
*KV		=  45
*MA		=  200
*LOW		=  0.000000
*HIGH		=  0.000000
*CTEMPER	=  0, 0.000000
*CTEMPER	=  1, 0.000000
*CTEMPER	=  2, 0.000000
*PAREX		=  0, 0.000000
*PAREX		=  1, 0.000000
*PAREX		=  2, 0.000000
*PAREX		=  3, 0.000000
*PAREX		=  4, 0.000000
*PAREX		=  5, 0.000000
*PAREX		=  6, 0.000000
*PAREX		=  7, 0.000000
[...]
*SLIT_SPEC	=  0, 0.500mm, 0.5, 0.000000
*SLIT_SPEC	=  1, 8.000mm, 8, 0.000000
*SLIT_SPEC	=  2, 13.000mm, 13, 0.000000
*KV		=  45
*MA		=  200
*LOW		=  0.000000
*HIGH		=  0.000000
*CTEMPER	=  0, 0.000000
*CTEMPER	=  1, 0.000000
*CTEMPER	=  2, 0.000000
*PAREX		=  0, 0.000000
*PAREX		=  1, 0.000000
*PAREX		=  2, 0.000000
*PAREX		=  3, 0.000000
*PAREX		=  4, 0.000000
*PAREX		=  5, 0.000000
*PAREX		=  6, 0.000000
*PAREX		=  7, 0.000000
*PAREX		=  8, 0.000000
*PAREX		=  9, 0.000000
*PAREX		=  10, 0.000000
*PAREX		=  11, 0.000000
*PAREX		=  12, 0.000000
*PAREX		=  13, 0.000000
*PAREX		=  14, 0.000000
*PAREX		=  15, 0.000000
*FULL_SCALE	=  25000
*INDEX		=  0, 0, 0
*COUNT		=  257
40, 40, 44, 46
43, 39, 40, 44
47, 50, 53, 49
43, 41, 47, 52
49, 45, 45, 50
54, 52, 49, 48
47, 46, 48, 50
51, 51, 50, 48
46, 50, 56, 57
47, 39, 39, 41
42, 41, 41, 44
49, 52, 54, 55
54, 52, 48, 41
36, 40, 44, 47
49, 50, 49, 48
46, 43, 43, 47
49, 49, 48, 47
46, 46, 48, 50
50, 48, 47, 53
59, 59, 55, 52
50, 48, 46, 45
45, 47, 49, 51
54, 51, 42, 36
39, 44, 48, 52
54, 48, 41, 39
41, 44, 50, 54
52, 47, 43, 42
42, 45, 47, 46
39, 34, 37, 43
43, 39, 36, 40
45, 45, 42, 40
42, 45, 47, 47
47, 43, 40, 38
37, 39, 45, 50
50, 49, 50, 55
58, 58, 56, 54
51, 49, 48, 46
45, 43, 42, 41
41, 44, 48, 50
49, 48, 48, 48
49, 50, 50, 46
41, 41, 45, 49
49, 48, 51, 55
58, 57, 55, 54
54, 51, 47, 42
45, 49, 48, 39
31, 38, 47, 48
42, 37, 41, 46
50, 52, 53, 48
43, 40, 38, 38
41, 44, 47, 49
49, 48, 46, 46
46, 43, 36, 30
33, 37, 38, 38
39, 43, 48, 48
46, 45, 45, 45
43, 41, 39, 40
41, 46, 51, 54
55, 56, 53, 50
51, 53, 54, 46
37, 35, 37, 39
43, 47, 49, 49
50, 48, 47, 46
45, 47, 53, 59
56
*END

*BEGIN
*GROUP		=  0
*START		=  76.25
*STOP		=  78.25
*STEP		=  0.0078
*OFFSET		=  59.035
*SPEED		=  15
*SLIT_SPEC	=  0, 0.500mm, 0.5, 0.000000
*SLIT_SPEC	=  1, 8.000mm, 8, 0.000000
*SLIT_SPEC	=  2, 13.000mm, 13, 0.000000
*KV		=  45
*MA		=  200
*LOW		=  0.000000
*HIGH		=  0.000000
*CTEMPER	=  0, 0.000000
*CTEMPER	=  1, 0.000000
*CTEMPER	=  2, 0.000000
*PAREX		=  0, 0.000000
*PAREX		=  1, 0.000000
*PAREX		=  2, 0.000000
*PAREX		=  3, 0.000000
*PAREX		=  4, 0.000000
*PAREX		=  5, 0.000000
*PAREX		=  6, 0.000000
*PAREX		=  7, 0.000000
*PAREX		=  8, 0.000000
*PAREX		=  9, 0.000000
*PAREX		=  10, 0.000000
*PAREX		=  11, 0.000000
*PAREX		=  12, 0.000000
*PAREX		=  13, 0.000000
*PAREX		=  14, 0.000000
*PAREX		=  15, 0.000000
*FULL_SCALE	=  25000
*INDEX		=  0, 0, 0
*COUNT		=  257
47, 46, 46, 46
44, 42, 41, 41
42, 47, 52, 51
48, 46, 47, 47
47, 47, 45, 42
40, 46, 54, 55
50, 47, 50, 54
51, 44, 40, 43
45, 46, 46, 47
49, 51, 50, 49
49, 50, 50, 52
53, 50, 44, 39
41, 44, 43, 40
39, 40, 41, 40
37, 37, 42, 47
48, 49, 48, 47
47, 50, 55, 55
50, 45, 42, 38
38, 40, 43, 47
52, 51, 47, 44
42, 41, 41, 41
42, 43, 43, 47
52, 52, 49, 46
45, 44, 47, 52
55, 53, 50, 50
52, 52, 50, 48
50, 53, 52, 44
37, 40, 45, 46
43, 40, 46, 54
55, 51, 47, 44
42, 40, 38, 38
47, 56, 57, 55
53, 52, 51, 47
41, 40, 45, 51
56, 61, 60, 54
50, 49, 50, 46
38, 33, 38, 42
43, 43, 43, 45
47, 49, 49, 51
54, 56, 51, 44
41, 44, 47, 49
50, 51, 50, 48
45, 42, 45, 52
55, 51, 46, 43
41, 41, 47, 53
53, 51, 49, 47
46, 48, 51, 52
51, 50, 48, 46
44, 44, 43, 43
44, 46, 48, 50
49, 48, 48, 48
48, 46, 46, 48
52, 53, 51, 48
44, 39, 38, 40
41, 41, 41, 42
43, 44, 46, 47
48, 50, 50, 49
47, 47, 46, 47
48, 51, 57, 63
59, 47, 37, 34
33, 34, 36, 40
46, 51, 52, 52
49, 44, 39, 36
33, 36, 45, 52
50
*END

*BEGIN
*GROUP		=  0
*START		=  76.25
*STOP		=  78.25
*STEP		=  0.0078
*OFFSET		=  59.045
*SPEED		=  15
*SLIT_SPEC	=  0, 0.500mm, 0.5, 0.000000
*SLIT_SPEC	=  1, 8.000mm, 8, 0.000000
*SLIT_SPEC	=  2, 13.000mm, 13, 0.000000
*KV		=  45
*MA		=  200
*LOW		=  0.000000
*HIGH		=  0.000000
*CTEMPER	=  0, 0.000000
*CTEMPER	=  1, 0.000000
*CTEMPER	=  2, 0.000000
*PAREX		=  0, 0.000000
*PAREX		=  1, 0.000000
*PAREX		=  2, 0.000000
*PAREX		=  3, 0.000000
*PAREX		=  4, 0.000000
*PAREX		=  5, 0.000000
*PAREX		=  6, 0.000000
*PAREX		=  7, 0.000000
*PAREX		=  8, 0.000000
*PAREX		=  9, 0.000000
*PAREX		=  10, 0.000000
*PAREX		=  11, 0.000000
*PAREX		=  12, 0.000000
*PAREX		=  13, 0.000000
*PAREX		=  14, 0.000000
*PAREX		=  15, 0.000000
*FULL_SCALE	=  25000
*INDEX		=  0, 0, 0
*COUNT		=  257
38, 40, 45, 47
47, 45, 45, 46
46, 48, 49, 49
49, 49, 48, 48
49, 50, 47, 39
33, 39, 48, 53
56, 58, 53, 49
46, 45, 45, 50
54, 54, 52, 50
48, 45, 43, 41
41, 42, 44, 48
52, 52, 48, 45
48, 51, 50, 47
46, 50, 54, 52
48, 44, 42, 40
42, 45, 47, 48
48, 48, 47, 45
40, 37, 40, 44
43, 40, 38, 42
47, 47, 45, 44
49, 53, 50, 44
45, 54, 62, 57
49, 45, 46, 46
42, 37, 35, 36
36, 39, 41, 44
47, 50, 52, 53
55, 57, 56, 49
43, 42, 42, 41
39, 37, 35, 34
36, 41, 45, 48
51, 50, 46, 44
47, 51, 49, 44
41, 43, 44, 46
49, 49, 48, 47
45, 42, 45, 54
62, 61, 60, 58
55, 52, 47, 43
41, 42, 43, 45
46, 44, 40, 38
41, 44, 40, 35
35, 41, 46, 43
39, 40, 44, 48
48, 49, 51, 55
58, 58, 58, 53
46, 42, 40, 39
43, 49, 50, 44
39, 40, 42, 45
49, 53, 53, 53
51, 47, 43, 39
35, 34, 33, 35
40, 45, 46, 47
45, 41, 38, 40
43, 45, 46, 47
45, 44, 41, 37
36, 42, 50, 50
46, 43, 40, 38
36, 34, 35, 41
47, 48, 48, 49
52, 55, 57, 58
58, 56, 54, 50
47, 47, 49, 50
51, 52, 47, 41
37, 38, 38, 40
43, 45, 48, 49
44
*END

*BEGIN
*GROUP		=  0
*START		=  76.25
*STOP		=  78.25
*STEP		=  0.0078
*OFFSET		=  59.055
*SPEED		=  15
*SLIT_SPEC	=  0, 0.500mm, 0.5, 0.000000
*SLIT_SPEC	=  1, 8.000mm, 8, 0.000000
*SLIT_SPEC	=  2, 13.000mm, 13, 0.000000
*KV		=  45
*MA		=  200
*LOW		=  0.000000
*HIGH		=  0.000000
*CTEMPER	=  0, 0.000000
*CTEMPER	=  1, 0.000000
*CTEMPER	=  2, 0.000000
*PAREX		=  0, 0.000000
*PAREX		=  1, 0.000000
*PAREX		=  2, 0.000000
*PAREX		=  3, 0.000000
*PAREX		=  4, 0.000000
*PAREX		=  5, 0.000000
*PAREX		=  6, 0.000000
*PAREX		=  7, 0.000000
*PAREX		=  8, 0.000000
*PAREX		=  9, 0.000000
*PAREX		=  10, 0.000000
*PAREX		=  11, 0.000000
*PAREX		=  12, 0.000000
*PAREX		=  13, 0.000000
*PAREX		=  14, 0.000000
*PAREX		=  15, 0.000000
*FULL_SCALE	=  25000
*INDEX		=  0, 0, 0
*COUNT		=  257
44, 46, 49, 51
46, 41, 40, 40
42, 46, 50, 53
55, 57, 55, 54
53, 52, 50, 47
45, 46, 47, 50
55, 59, 54, 49
47, 47, 47, 46
46, 46, 45, 44
43, 41, 43, 46
47, 48, 49, 49
49, 49, 49, 48
45, 41, 42, 45
46, 44, 42, 42
42, 47, 60, 72
65, 54, 48, 51
53, 48, 42, 41
45, 49, 49, 49
46, 40, 37, 44
51, 53, 53, 52
50, 49, 52, 56
58, 57, 55, 49
43, 41, 44, 45
43, 40, 39, 40
41, 46, 50, 46
38, 36, 49, 62
63, 59, 55, 49
43, 43, 44, 45
48, 50, 50, 51
48, 42, 37, 39
42, 42, 42, 41
41, 42, 47, 53
56, 53, 50, 48
47, 45, 42, 40
42, 45, 47, 46
47, 52, 57, 56
51, 48, 49, 51
56, 62, 64, 59
53, 48, 42, 42
49, 55, 54, 51
49, 49, 48, 45
41, 41, 45, 48
46, 43, 43, 45
45, 41, 37, 35
35, 35, 38, 40
41, 42, 40, 37
35, 43, 52, 55
53, 50, 48, 47
42, 37, 33, 38
43, 46, 50, 49
40, 31, 33, 37
40, 40, 40, 40
39, 39, 39, 39
42, 44, 44, 42
42, 44, 46, 47
48, 48, 49, 50
47, 43, 42, 44
46, 48, 51, 50
44, 40, 42, 46
46, 44, 42, 42
42, 43, 45, 46
45, 45, 46, 48
49, 48, 48, 49
51, 52, 51, 50
46
*END

*BEGIN
*GROUP		=  0
*START		=  76.25
*STOP		=  78.25
*STEP		=  0.0078
*OFFSET		=  59.065
*SPEED		=  15
*SLIT_SPEC	=  0, 0.500mm, 0.5, 0.000000
*SLIT_SPEC	=  1, 8.000mm, 8, 0.000000
*SLIT_SPEC	=  2, 13.000mm, 13, 0.000000
*KV		=  45
*MA		=  200
*LOW		=  0.000000
*HIGH		=  0.000000
*CTEMPER	=  0, 0.000000
*CTEMPER	=  1, 0.000000
*CTEMPER	=  2, 0.000000
*PAREX		=  0, 0.000000
*PAREX		=  1, 0.000000
*PAREX		=  2, 0.000000
*PAREX		=  3, 0.000000
*PAREX		=  4, 0.000000
*PAREX		=  5, 0.000000
*PAREX		=  6, 0.000000
*PAREX		=  7, 0.000000
*PAREX		=  8, 0.000000
*PAREX		=  9, 0.000000
*PAREX		=  10, 0.000000
*PAREX		=  11, 0.000000
*PAREX		=  12, 0.000000
*PAREX		=  13, 0.000000
*PAREX		=  14, 0.000000
*PAREX		=  15, 0.000000
*FULL_SCALE	=  25000
*INDEX		=  0, 0, 0
*COUNT		=  257
47, 46, 44, 42
44, 46, 47, 48
48, 43, 38, 38
38, 42, 48, 55
56, 57, 53, 46
39, 37, 36, 37
41, 44, 45, 47
48, 50, 50, 45
41, 42, 44, 45
46, 46, 48, 50
49, 45, 42, 48
56, 58, 54, 50
49, 48, 49, 49
49, 46, 42, 47
54, 57, 52, 46
46, 48, 49, 50
49, 43, 35, 34
41, 45, 39, 32
33, 39, 45, 53
60, 59, 54, 50
48, 47, 49, 51
51, 45, 39, 40
42, 45, 49, 52
45, 38, 38, 43
47, 47, 46, 45
43, 42, 44, 46
48, 50, 49, 45
41, 40, 40, 41
42, 44, 46, 48
48, 47, 46, 46
45, 46, 48, 48
46, 43, 41, 40
40, 43, 45, 43
39, 38, 39, 40
42, 43, 46, 50
54, 56, 58, 59
59, 57, 49, 40
39, 43, 46, 48
50, 48, 44, 41
41, 41, 42, 43
43, 43, 43, 44
45, 46, 45, 44
43, 42, 44, 46
48, 48, 49, 47
45, 45, 49, 53
55, 57, 57, 53
50, 49, 48, 49
52, 54, 57, 60
57, 51, 46, 45
44, 48, 53, 53
46, 39, 41, 45
48, 49, 49, 49
49, 52, 58, 62
55, 47, 46, 49
51, 46, 42, 43
46, 49, 51, 52
49, 45, 42, 40
40, 45, 52, 54
50, 46, 44, 43
42, 43, 42, 38
34, 36, 42, 46
49, 50, 47, 42
39, 38, 37, 36
35, 39, 50, 58
54
*END

*EOF